{
    "resourceType": "RequestGroup", 
    "type": "RequestGroup", 
    "meta": {
        "tag": [
            {
                "system": "http://terminology.hl7.org/CodeSystem/v3-ActReason", 
                "code": "HTEST", 
                "display": "test health data"
            }
        ]
    }, 
    "implicitRules": "Property. Model:'https://raw.githubusercontent.com/agaldemas/incubated/master/SMARTHEALTH/HL7/FHIR-R4/FHIR-R4/uri' String of characters used to identify a name or a resource", 
    "_implicitRules": {
        "id": "3039d67b-1186-415a-a58b-2b76156bd127", 
        "extension": [
            "urn:ngsi-ld:Extension:001"
        ]
    }, 
    "language": "Property. Model:'https://raw.githubusercontent.com/agaldemas/incubated/master/SMARTHEALTH/HL7/FHIR-R4/FHIR-R4/code' A string which has at least one character and no leading or trailing whitespace and where there is no whitespace other than single spaces in the contents", 
    "_language": {
        "id": "d1d4357f-182e-421c-9bdc-8109d691b5ab", 
        "extension": [
            "urn:ngsi-ld:Extension:001"
        ]
    }, 
    "text": {
        "status": "generated", 
        "div": "<div xmlns=\"http://www.w3.org/1999/xhtml\">Administer gemcitabine and carboplatin.</div>"
    }, 
    "contained": [
        {
            "resourceType": "MedicationRequest", 
            "id": "1111", 
            "status": "unknown", 
            "intent": "proposal", 
            "medicationCodeableConcept": {
                "coding": [
                    {
                        "system": "http://www.nlm.nih.gov/research/umls/rxnorm", 
                        "code": "12574", 
                        "display": "gemcitabine"
                    }
                ], 
                "text": "gemcitabine"
            }, 
            "subject": {
                "reference": "Patient/example"
            }, 
            "dosageInstruction": [
                {
                    "text": "1250 mg/m\u00b2 IV over 30 minutes", 
                    "timing": {
                        "repeat": {
                            "duration": 30, 
                            "durationUnit": "min"
                        }
                    }, 
                    "route": {
                        "text": "IV"
                    }, 
                    "doseAndRate": [
                        {
                            "type": {
                                "coding": [
                                    {
                                        "system": "http://terminology.hl7.org/CodeSystem/dose-rate-type", 
                                        "code": "ordered", 
                                        "display": "Ordered"
                                    }
                                ]
                            }, 
                            "doseQuantity": {
                                "value": 1250, 
                                "unit": "mg/m\u00b2"
                            }
                        }
                    ]
                }
            ]
        }, 
        {
            "resourceType": "MedicationRequest", 
            "id": "2222", 
            "status": "unknown", 
            "intent": "proposal", 
            "medicationCodeableConcept": {
                "coding": [
                    {
                        "system": "http://www.nlm.nih.gov/research/umls/rxnorm", 
                        "code": "40048", 
                        "display": "Carboplatin"
                    }
                ], 
                "text": "CARBOplatin"
            }, 
            "subject": {
                "reference": "Patient/example"
            }, 
            "dosageInstruction": [
                {
                    "text": "AUC 5 IV over 30 minutes", 
                    "timing": {
                        "repeat": {
                            "duration": 30, 
                            "durationUnit": "min"
                        }
                    }, 
                    "route": {
                        "text": "IV"
                    }, 
                    "doseAndRate": [
                        {
                            "type": {
                                "coding": [
                                    {
                                        "system": "http://terminology.hl7.org/CodeSystem/dose-rate-type", 
                                        "code": "ordered", 
                                        "display": "Ordered"
                                    }
                                ]
                            }, 
                            "doseQuantity": {
                                "extension": [
                                    {
                                        "url": "http://example.org/fhir/AUC-dose", 
                                        "valueInteger": 5
                                    }
                                ]
                            }
                        }
                    ]
                }
            ]
        }
    ], 
    "extension": [
        "urn:ngsi-ld:Extension:001"
    ], 
    "modifierExtension": [
        "urn:ngsi-ld:Extension:modifier001"
    ], 
    "identifier": [
        {
            "value": "requestgroup-kdn5"
        }
    ], 
    "instantiatesCanonical": [
        "http://example.org/fhir/PlanDefinition/KDN5"
    ], 
    "_instantiatesCanonical": [
        {
            "id": "8701795e-9741-456b-bde6-bc309cae85dd", 
            "extension": [
                "urn:ngsi-ld:Extension:001"
            ]
        }
    ], 
    "instantiatesUri": [
        "Property. Model:'https://raw.githubusercontent.com/agaldemas/incubated/master/SMARTHEALTH/HL7/FHIR-R4/FHIR-R4/uri' A URL referencing an externally defined protocol, guideline, orderset or other definition that is adhered to in whole or in part by this request."
    ], 
    "_instantiatesUri": [
        {
            "id": "ea45d4fe-af21-4fe8-b39f-e05d94a95107", 
            "extension": [
                "urn:ngsi-ld:Extension:001"
            ]
        }
    ], 
    "basedOn": [
        {
            "id": "9ba8560a-8f4f-40e3-8fa7-53b3bdce2b9e", 
            "extension": [
                "urn:ngsi-ld:Extension:001"
            ], 
            "reference": "A reference to a location at which the other resource is found. The reference may be a relative reference, in which case it is relative to the service base URL, or an absolute URL that resolves to the location where the resource is found. The reference may be version specific or not. If the reference is not to a FHIR RESTful server, then it should be assumed to be version specific. Internal fragment references (start with '#') refer to contained resources.", 
            "_reference": {
                "id": "aab1fd9e-482d-4dfa-80c4-067755821cef"
            }, 
            "type": "The expected type of the target of the reference. If both Reference.type and Reference.reference are populated and Reference.reference is a FHIR URL, both SHALL be consistent.\n\nThe type is the Canonical URL of Resource Definition that is the type this reference refers to. References are URLs that are relative to http://hl7.org/fhir/StructureDefinition/ e.g. \"Patient\" is a reference to http://hl7.org/fhir/StructureDefinition/Patient. Absolute URLs are only allowed for logical models (and can only be used in references in logical models, not resources).", 
            "_type": {
                "id": "8c5a0458-e0d6-456c-a7df-193b624c3742"
            }, 
            "identifier": {
                "id": "32096236-652a-4e9f-bdc2-664ee86347b0", 
                "_use": {
                    "id": "17f87ad8-d089-4afa-a2b8-eb2d8fd16926"
                }, 
                "type": {
                    "id": "dd48bb69-bece-4d89-bbf9-29c55755f974", 
                    "text": "A human language representation of the concept as seen/selected/uttered by the user who entered the data and/or which represents the intended meaning of the user."
                }, 
                "system": "Establishes the namespace for the value - that is, a URL that describes a set values that are unique.", 
                "_system": {
                    "id": "a5905a69-34a7-417e-8c6b-42510988ca1b"
                }, 
                "value": "The portion of the identifier typically relevant to the user and which is unique within the context of the system.", 
                "_value": {
                    "id": "221c3c09-2139-48ad-92f1-b8180054553e"
                }, 
                "period": {
                    "id": "650455cc-f488-4670-9c15-e26439d3f70d", 
                    "start": "The start of the period. The boundary is inclusive.", 
                    "end": "The end of the period. If the end of the period is missing, it means no end was known or planned at the time the instance was created. The start may be in the past, and the end date in the future, which means that period is expected/planned to end at that time."
                }, 
                "assigner": {
                    "id": "58b986da-d6ca-4768-aaf5-a5c1ed9b3742", 
                    "reference": "A reference to a location at which the other resource is found. The reference may be a relative reference, in which case it is relative to the service base URL, or an absolute URL that resolves to the location where the resource is found. The reference may be version specific or not. If the reference is not to a FHIR RESTful server, then it should be assumed to be version specific. Internal fragment references (start with '#') refer to contained resources.", 
                    "type": "The expected type of the target of the reference. If both Reference.type and Reference.reference are populated and Reference.reference is a FHIR URL, both SHALL be consistent.\n\nThe type is the Canonical URL of Resource Definition that is the type this reference refers to. References are URLs that are relative to http://hl7.org/fhir/StructureDefinition/ e.g. \"Patient\" is a reference to http://hl7.org/fhir/StructureDefinition/Patient. Absolute URLs are only allowed for logical models (and can only be used in references in logical models, not resources).", 
                    "display": "Plain text narrative that identifies the resource in addition to the resource reference."
                }
            }, 
            "display": "Plain text narrative that identifies the resource in addition to the resource reference.", 
            "_display": {
                "id": "61d04a96-2bdc-4902-811d-3cdeaf2ea6a2"
            }
        }
    ], 
    "replaces": [
        {
            "id": "dde74271-26b0-4313-98b3-59dd2448dc28", 
            "extension": [
                "urn:ngsi-ld:Extension:001"
            ], 
            "reference": "A reference to a location at which the other resource is found. The reference may be a relative reference, in which case it is relative to the service base URL, or an absolute URL that resolves to the location where the resource is found. The reference may be version specific or not. If the reference is not to a FHIR RESTful server, then it should be assumed to be version specific. Internal fragment references (start with '#') refer to contained resources.", 
            "_reference": {
                "id": "e589cd29-faef-4a2d-82f9-b9394feead43"
            }, 
            "type": "The expected type of the target of the reference. If both Reference.type and Reference.reference are populated and Reference.reference is a FHIR URL, both SHALL be consistent.\n\nThe type is the Canonical URL of Resource Definition that is the type this reference refers to. References are URLs that are relative to http://hl7.org/fhir/StructureDefinition/ e.g. \"Patient\" is a reference to http://hl7.org/fhir/StructureDefinition/Patient. Absolute URLs are only allowed for logical models (and can only be used in references in logical models, not resources).", 
            "_type": {
                "id": "aee46c64-21b9-4589-b82c-f5efb9f5d475"
            }, 
            "identifier": {
                "id": "60d61131-f022-4efd-90ac-000ef0adc173", 
                "_use": {
                    "id": "f7a30380-c39f-4e15-bd4c-92d2f9491918"
                }, 
                "type": {
                    "id": "4dbda472-7473-42f2-b30c-028b403709f1", 
                    "text": "A human language representation of the concept as seen/selected/uttered by the user who entered the data and/or which represents the intended meaning of the user."
                }, 
                "system": "Establishes the namespace for the value - that is, a URL that describes a set values that are unique.", 
                "_system": {
                    "id": "e22f2415-bb4f-42b9-ad99-4cae67a08a37"
                }, 
                "value": "The portion of the identifier typically relevant to the user and which is unique within the context of the system.", 
                "_value": {
                    "id": "1a6c0b1b-2d12-4eb6-bab1-064a1a7237af"
                }, 
                "period": {
                    "id": "872050cb-bb37-441b-b461-946460f81f09", 
                    "start": "The start of the period. The boundary is inclusive.", 
                    "end": "The end of the period. If the end of the period is missing, it means no end was known or planned at the time the instance was created. The start may be in the past, and the end date in the future, which means that period is expected/planned to end at that time."
                }, 
                "assigner": {
                    "id": "b619f245-9a17-4699-9561-2baa3e3951cf", 
                    "reference": "A reference to a location at which the other resource is found. The reference may be a relative reference, in which case it is relative to the service base URL, or an absolute URL that resolves to the location where the resource is found. The reference may be version specific or not. If the reference is not to a FHIR RESTful server, then it should be assumed to be version specific. Internal fragment references (start with '#') refer to contained resources.", 
                    "type": "The expected type of the target of the reference. If both Reference.type and Reference.reference are populated and Reference.reference is a FHIR URL, both SHALL be consistent.\n\nThe type is the Canonical URL of Resource Definition that is the type this reference refers to. References are URLs that are relative to http://hl7.org/fhir/StructureDefinition/ e.g. \"Patient\" is a reference to http://hl7.org/fhir/StructureDefinition/Patient. Absolute URLs are only allowed for logical models (and can only be used in references in logical models, not resources).", 
                    "display": "Plain text narrative that identifies the resource in addition to the resource reference."
                }
            }, 
            "display": "Plain text narrative that identifies the resource in addition to the resource reference.", 
            "_display": {
                "id": "e9f95479-ff5b-49ea-9475-2480a2da417c"
            }
        }
    ], 
    "groupIdentifier": {
        "id": "44dd35ba-559c-45a9-b91f-924c9044e901", 
        "extension": [
            "urn:ngsi-ld:Extension:001"
        ], 
        "_use": {
            "id": "6d5c9c15-04aa-4e66-8118-a944eb096ebd"
        }, 
        "type": {
            "id": "8df96f76-0797-440f-bbc8-e73936fdb9db", 
            "coding": [
                {
                    "id": "85bd23bd-884f-4b17-a9e5-29ad0275dbbb", 
                    "system": "The identification of the code system that defines the meaning of the symbol in the code.", 
                    "version": "The version of the code system which was used when choosing this code. Note that a well-maintained code system does not need the version reported, because the meaning of codes is consistent across versions. However this cannot consistently be assured, and when the meaning is not guaranteed to be consistent, the version SHOULD be exchanged.", 
                    "code": "A symbol in syntax defined by the system. The symbol may be a predefined code or an expression in a syntax defined by the coding system (e.g. post-coordination).", 
                    "display": "A representation of the meaning of the code in the system, following the rules of the system.", 
                    "userSelected": false
                }
            ], 
            "text": "A human language representation of the concept as seen/selected/uttered by the user who entered the data and/or which represents the intended meaning of the user.", 
            "_text": {
                "id": "b4a7f13c-38af-454c-93b2-a39dc5fd7e14"
            }
        }, 
        "system": "Establishes the namespace for the value - that is, a URL that describes a set values that are unique.", 
        "_system": {
            "id": "37e6b150-e19b-4123-8abe-1322f212bcb4"
        }, 
        "value": "The portion of the identifier typically relevant to the user and which is unique within the context of the system.", 
        "_value": {
            "id": "e3c35caa-c048-4e2f-8cb4-06138b6f3e23"
        }, 
        "period": {
            "id": "15f63d8f-d493-4f52-9f99-2be012442c8c", 
            "start": "The start of the period. The boundary is inclusive.", 
            "_start": {
                "id": "d2047bed-4705-4551-8759-0818fe8cdd4b"
            }, 
            "end": "The end of the period. If the end of the period is missing, it means no end was known or planned at the time the instance was created. The start may be in the past, and the end date in the future, which means that period is expected/planned to end at that time.", 
            "_end": {
                "id": "f01a69f0-e3d6-4087-9420-b0dc9c170d4c"
            }
        }, 
        "assigner": {
            "id": "31fb3b95-9b93-4619-a72f-e2b67756b4a2", 
            "reference": "A reference to a location at which the other resource is found. The reference may be a relative reference, in which case it is relative to the service base URL, or an absolute URL that resolves to the location where the resource is found. The reference may be version specific or not. If the reference is not to a FHIR RESTful server, then it should be assumed to be version specific. Internal fragment references (start with '#') refer to contained resources.", 
            "_reference": {
                "id": "af08240f-2ec8-4ca7-9f7b-45047f07ea4f"
            }, 
            "type": "The expected type of the target of the reference. If both Reference.type and Reference.reference are populated and Reference.reference is a FHIR URL, both SHALL be consistent.\n\nThe type is the Canonical URL of Resource Definition that is the type this reference refers to. References are URLs that are relative to http://hl7.org/fhir/StructureDefinition/ e.g. \"Patient\" is a reference to http://hl7.org/fhir/StructureDefinition/Patient. Absolute URLs are only allowed for logical models (and can only be used in references in logical models, not resources).", 
            "_type": {
                "id": "dae22c38-5e68-4806-8ebb-2df440e7281d"
            }, 
            "identifier": {
                "id": "7af9e673-35cb-431b-a47b-b5d5bd688e93", 
                "system": "Establishes the namespace for the value - that is, a URL that describes a set values that are unique.", 
                "value": "The portion of the identifier typically relevant to the user and which is unique within the context of the system."
            }, 
            "display": "Plain text narrative that identifies the resource in addition to the resource reference.", 
            "_display": {
                "id": "ff44f407-f7b9-4ae8-bf1a-323c690f3b89"
            }
        }
    }, 
    "status": "draft", 
    "_status": {
        "id": "ea9e7472-12a5-4cc7-ba33-a00b7ce27825", 
        "extension": [
            "urn:ngsi-ld:Extension:001"
        ]
    }, 
    "intent": "plan", 
    "_intent": {
        "id": "a9582eb2-842c-4ba4-8521-88aefc0c5aa7", 
        "extension": [
            "urn:ngsi-ld:Extension:001"
        ]
    }, 
    "priority": "routine", 
    "_priority": {
        "id": "a14f5be3-be84-4b00-94b3-28a21224cb87", 
        "extension": [
            "urn:ngsi-ld:Extension:001"
        ]
    }, 
    "code": {
        "id": "d539a242-70a5-436c-969a-fd796a477366", 
        "extension": [
            "urn:ngsi-ld:Extension:001"
        ], 
        "coding": [
            {
                "id": "3ac4dc01-dbb9-4b3e-a073-337cd5d59057", 
                "system": "The identification of the code system that defines the meaning of the symbol in the code.", 
                "_system": {
                    "id": "b587cbaf-4822-4e62-ac41-73f8f4b09d66"
                }, 
                "version": "The version of the code system which was used when choosing this code. Note that a well-maintained code system does not need the version reported, because the meaning of codes is consistent across versions. However this cannot consistently be assured, and when the meaning is not guaranteed to be consistent, the version SHOULD be exchanged.", 
                "_version": {
                    "id": "bf1fede9-eb7c-4b27-ad7a-4233421650e1"
                }, 
                "code": "A symbol in syntax defined by the system. The symbol may be a predefined code or an expression in a syntax defined by the coding system (e.g. post-coordination).", 
                "_code": {
                    "id": "f1b1e5d7-487e-40d2-91c9-aa6149cd5c08"
                }, 
                "display": "A representation of the meaning of the code in the system, following the rules of the system.", 
                "_display": {
                    "id": "ce74bb62-8eba-445c-be75-6696c700343c"
                }, 
                "userSelected": false, 
                "_userSelected": {
                    "id": "0d89fe08-0414-4236-92bf-0758d30ede7c"
                }
            }
        ], 
        "text": "A human language representation of the concept as seen/selected/uttered by the user who entered the data and/or which represents the intended meaning of the user.", 
        "_text": {
            "id": "ebab8669-928c-442c-a6db-b2517957e3e9"
        }
    }, 
    "subject": {
        "reference": "Patient/example"
    }, 
    "encounter": {
        "reference": "Encounter/example"
    }, 
    "authoredOn": "2017-03-06T17:31:00Z", 
    "_authoredOn": {
        "id": "10f1c5a4-8199-4a37-af19-7521f596a4b2", 
        "extension": [
            "urn:ngsi-ld:Extension:001"
        ]
    }, 
    "author": {
        "reference": "Practitioner/1"
    }, 
    "reasonCode": [
        {
            "id": "062517a5-9ff2-49b8-9097-df0683e83114", 
            "extension": [
                "urn:ngsi-ld:Extension:001"
            ], 
            "coding": [
                {
                    "id": "da28efa9-f99c-49a8-95f6-9a8d6c4f012b", 
                    "system": "The identification of the code system that defines the meaning of the symbol in the code.", 
                    "_system": {
                        "id": "d7158d49-30b7-4c84-b77b-5982b7efb071"
                    }, 
                    "version": "The version of the code system which was used when choosing this code. Note that a well-maintained code system does not need the version reported, because the meaning of codes is consistent across versions. However this cannot consistently be assured, and when the meaning is not guaranteed to be consistent, the version SHOULD be exchanged.", 
                    "_version": {
                        "id": "be452377-4fa7-4c48-a55f-cec1092d05ce"
                    }, 
                    "code": "A symbol in syntax defined by the system. The symbol may be a predefined code or an expression in a syntax defined by the coding system (e.g. post-coordination).", 
                    "_code": {
                        "id": "c321669a-f4b4-4e06-aa3c-b3797e4ad162"
                    }, 
                    "display": "A representation of the meaning of the code in the system, following the rules of the system.", 
                    "_display": {
                        "id": "f16254f6-5ba5-4d1c-80ba-ebb7b1690edc"
                    }, 
                    "userSelected": false, 
                    "_userSelected": {
                        "id": "5f1dc3fa-3a69-4874-ac03-fc5d43ed74b9"
                    }
                }
            ], 
            "text": "A human language representation of the concept as seen/selected/uttered by the user who entered the data and/or which represents the intended meaning of the user.", 
            "_text": {
                "id": "bee8048a-d46a-4852-9df8-b9bfe7aa8abd"
            }
        }
    ], 
    "reasonReference": [
        {
            "id": "b0907263-bc6a-4890-956d-1562f1706b53", 
            "extension": [
                "urn:ngsi-ld:Extension:001"
            ], 
            "reference": "A reference to a location at which the other resource is found. The reference may be a relative reference, in which case it is relative to the service base URL, or an absolute URL that resolves to the location where the resource is found. The reference may be version specific or not. If the reference is not to a FHIR RESTful server, then it should be assumed to be version specific. Internal fragment references (start with '#') refer to contained resources.", 
            "_reference": {
                "id": "c32b7acf-d2cd-4394-b1ec-bdfa116e4a27"
            }, 
            "type": "The expected type of the target of the reference. If both Reference.type and Reference.reference are populated and Reference.reference is a FHIR URL, both SHALL be consistent.\n\nThe type is the Canonical URL of Resource Definition that is the type this reference refers to. References are URLs that are relative to http://hl7.org/fhir/StructureDefinition/ e.g. \"Patient\" is a reference to http://hl7.org/fhir/StructureDefinition/Patient. Absolute URLs are only allowed for logical models (and can only be used in references in logical models, not resources).", 
            "_type": {
                "id": "23d9b035-7780-4cf6-a050-086a9cefb203"
            }, 
            "identifier": {
                "id": "5951a977-7abb-41f4-ac90-d71d49e7f7be", 
                "_use": {
                    "id": "464b7faa-3308-4e9f-9cc8-ebd1eb67468a"
                }, 
                "type": {
                    "id": "47fda0d8-6e64-454a-a211-3744c38cc17e", 
                    "text": "A human language representation of the concept as seen/selected/uttered by the user who entered the data and/or which represents the intended meaning of the user."
                }, 
                "system": "Establishes the namespace for the value - that is, a URL that describes a set values that are unique.", 
                "_system": {
                    "id": "7c0c2faa-ac4d-4fb7-bc55-7b4e23805535"
                }, 
                "value": "The portion of the identifier typically relevant to the user and which is unique within the context of the system.", 
                "_value": {
                    "id": "b2a18979-f8be-48aa-a375-fe23e71904da"
                }, 
                "period": {
                    "id": "b25fc328-15f2-4858-8b6b-e3f63b494726", 
                    "start": "The start of the period. The boundary is inclusive.", 
                    "end": "The end of the period. If the end of the period is missing, it means no end was known or planned at the time the instance was created. The start may be in the past, and the end date in the future, which means that period is expected/planned to end at that time."
                }, 
                "assigner": {
                    "id": "09b2e1ae-a68e-44e7-a8a0-1259026a6a4f", 
                    "reference": "A reference to a location at which the other resource is found. The reference may be a relative reference, in which case it is relative to the service base URL, or an absolute URL that resolves to the location where the resource is found. The reference may be version specific or not. If the reference is not to a FHIR RESTful server, then it should be assumed to be version specific. Internal fragment references (start with '#') refer to contained resources.", 
                    "type": "The expected type of the target of the reference. If both Reference.type and Reference.reference are populated and Reference.reference is a FHIR URL, both SHALL be consistent.\n\nThe type is the Canonical URL of Resource Definition that is the type this reference refers to. References are URLs that are relative to http://hl7.org/fhir/StructureDefinition/ e.g. \"Patient\" is a reference to http://hl7.org/fhir/StructureDefinition/Patient. Absolute URLs are only allowed for logical models (and can only be used in references in logical models, not resources).", 
                    "display": "Plain text narrative that identifies the resource in addition to the resource reference."
                }
            }, 
            "display": "Plain text narrative that identifies the resource in addition to the resource reference.", 
            "_display": {
                "id": "6ca3bdb9-3e73-441d-8605-2325c8b0e32d"
            }
        }
    ], 
    "note": [
        {
            "id": "c8dbb0a5-8cbd-4ea0-8a98-4f430786097e", 
            "extension": [
                "urn:ngsi-ld:Extension:001"
            ], 
            "authorReference": {
                "id": "4ab3e9e7-aedc-4240-a600-2e0d0070ca84", 
                "reference": "A reference to a location at which the other resource is found. The reference may be a relative reference, in which case it is relative to the service base URL, or an absolute URL that resolves to the location where the resource is found. The reference may be version specific or not. If the reference is not to a FHIR RESTful server, then it should be assumed to be version specific. Internal fragment references (start with '#') refer to contained resources.", 
                "_reference": {
                    "id": "7e276fdc-ba80-4776-b067-89aa136d4d09"
                }, 
                "type": "The expected type of the target of the reference. If both Reference.type and Reference.reference are populated and Reference.reference is a FHIR URL, both SHALL be consistent.\n\nThe type is the Canonical URL of Resource Definition that is the type this reference refers to. References are URLs that are relative to http://hl7.org/fhir/StructureDefinition/ e.g. \"Patient\" is a reference to http://hl7.org/fhir/StructureDefinition/Patient. Absolute URLs are only allowed for logical models (and can only be used in references in logical models, not resources).", 
                "_type": {
                    "id": "e3e98266-2d96-4e66-9b93-30f50af28cab"
                }, 
                "identifier": {
                    "id": "1253851b-8044-49bc-97ad-ddd8d5d2d7a8", 
                    "system": "Establishes the namespace for the value - that is, a URL that describes a set values that are unique.", 
                    "value": "The portion of the identifier typically relevant to the user and which is unique within the context of the system."
                }, 
                "display": "Plain text narrative that identifies the resource in addition to the resource reference.", 
                "_display": {
                    "id": "16ea8214-f81b-4564-bd68-4d9d84fa98a5"
                }
            }, 
            "authorString": "The individual responsible for making the annotation.", 
            "_authorString": {
                "id": "ad2ff040-e6f3-46fb-9fec-34f4648a6bf5"
            }, 
            "time": "15:30:25.219891", 
            "_time": {
                "id": "336722d1-ce7a-4260-9332-cb216b4dcb82"
            }, 
            "text": "The text of the annotation in markdown format.", 
            "_text": {
                "id": "4335eb85-11b4-4d42-bbf6-594cec5b2fc1"
            }
        }
    ], 
    "action": [
        {
            "selectionBehavior": "exactly-one", 
            "action": [
                {
                    "selectionBehavior": "all", 
                    "action": [
                        {
                            "groupingBehavior": "sentence-group", 
                            "selectionBehavior": "exactly-one", 
                            "action": [
                                {
                                    "id": "cycle-definition-1", 
                                    "textEquivalent": "21-day cycle for 6 cycles", 
                                    "timingTiming": {
                                        "repeat": {
                                            "count": 6, 
                                            "duration": 21, 
                                            "durationUnit": "d"
                                        }
                                    }, 
                                    "action": [
                                        {
                                            "id": "action-1", 
                                            "extension": [
                                                {
                                                    "url": "http://hl7.org/fhir/StructureDefinition/timing-daysOfCycle", 
                                                    "extension": [
                                                        {
                                                            "url": "day", 
                                                            "valueInteger": 1
                                                        }, 
                                                        {
                                                            "url": "day", 
                                                            "valueInteger": 8
                                                        }
                                                    ]
                                                }
                                            ], 
                                            "textEquivalent": "Gemcitabine 1250 mg/m\u00b2 IV over 30 minutes on days 1 and 8", 
                                            "resource": {
                                                "reference": "#1111"
                                            }
                                        }, 
                                        {
                                            "id": "action-2", 
                                            "extension": [
                                                {
                                                    "url": "http://hl7.org/fhir/StructureDefinition/timing-daysOfCycle", 
                                                    "extension": [
                                                        {
                                                            "url": "day", 
                                                            "valueInteger": 1
                                                        }
                                                    ]
                                                }
                                            ], 
                                            "textEquivalent": "CARBOplatin AUC 5 IV over 30 minutes on Day 1", 
                                            "relatedAction": [
                                                {
                                                    "actionId": "action-1", 
                                                    "relationship": "concurrent-with-start"
                                                }
                                            ], 
                                            "resource": {
                                                "reference": "#2222"
                                            }
                                        }
                                    ]
                                }
                            ]
                        }
                    ]
                }
            ]
        }
    ], 
    "id": "urn:ngsi-ld:RequestGroup:001", 
    "description": "an instance of RequestGroup"
}