{
    "resourceType": "QuestionnaireResponse", 
    "type": "QuestionnaireResponse", 
    "meta": {
        "id": "16883242-bfac-437d-9822-d9195d294d40", 
        "extension": [
            "urn:ngsi-ld:Extension:001"
        ], 
        "versionId": "The version specific identifier, as it appears in the version portion of the URL. This value changes when the resource is created, updated, or deleted.", 
        "_versionId": {
            "id": "9da475dd-b8aa-44d5-a18d-bae9560e41bd"
        }, 
        "lastUpdated": "25/11/2024", 
        "_lastUpdated": {
            "id": "6581b76b-b0af-4314-abb5-70595b9f60d8"
        }, 
        "source": "A uri that identifies the source system of the resource. This provides a minimal amount of [[[Provenance]]] information that can be used to track or differentiate the source of information in the resource. The source may identify another FHIR server, document, message, database, etc.", 
        "_source": {
            "id": "9db56d9c-fd20-46f2-a0a5-04dfbb989a61"
        }, 
        "profile": [
            "A list of profiles (references to [[[StructureDefinition]]] resources) that this resource claims to conform to. The URL is a reference to [[[StructureDefinition.url]]]."
        ], 
        "security": [
            {
                "id": "4b680bcf-f083-41ee-8c3d-c7331098a59e", 
                "system": "The identification of the code system that defines the meaning of the symbol in the code.", 
                "_system": {
                    "id": "3aec6ea2-d282-4c19-9741-b1ee1a774f94"
                }, 
                "version": "The version of the code system which was used when choosing this code. Note that a well-maintained code system does not need the version reported, because the meaning of codes is consistent across versions. However this cannot consistently be assured, and when the meaning is not guaranteed to be consistent, the version SHOULD be exchanged.", 
                "_version": {
                    "id": "d1ecb208-63d7-4ed0-88cc-d6b85c66e5be"
                }, 
                "code": "A symbol in syntax defined by the system. The symbol may be a predefined code or an expression in a syntax defined by the coding system (e.g. post-coordination).", 
                "_code": {
                    "id": "dd52b355-95b3-45a0-bc1f-87c15e17e273"
                }, 
                "display": "A representation of the meaning of the code in the system, following the rules of the system.", 
                "_display": {
                    "id": "77480386-5cab-4293-a041-9d5365277d17"
                }, 
                "userSelected": false, 
                "_userSelected": {
                    "id": "8ad4c68f-bb3c-4ff6-98c0-3b235f1c8d67"
                }
            }
        ], 
        "tag": [
            {
                "id": "4c2837aa-61c7-47ee-9c1a-4ea6a405a2fc", 
                "system": "The identification of the code system that defines the meaning of the symbol in the code.", 
                "_system": {
                    "id": "a11e5a63-b7e5-4da0-8a63-078719bdb452"
                }, 
                "version": "The version of the code system which was used when choosing this code. Note that a well-maintained code system does not need the version reported, because the meaning of codes is consistent across versions. However this cannot consistently be assured, and when the meaning is not guaranteed to be consistent, the version SHOULD be exchanged.", 
                "_version": {
                    "id": "8128b16a-0ed4-4861-93d4-323aec93264c"
                }, 
                "code": "A symbol in syntax defined by the system. The symbol may be a predefined code or an expression in a syntax defined by the coding system (e.g. post-coordination).", 
                "_code": {
                    "id": "5d48bed5-578e-462a-aea4-266efcffe105"
                }, 
                "display": "A representation of the meaning of the code in the system, following the rules of the system.", 
                "_display": {
                    "id": "de1c2513-c73b-4c06-bf4e-6fc0f66e86e1"
                }, 
                "userSelected": false, 
                "_userSelected": {
                    "id": "b1e452a5-feae-48b9-8f80-0ad816996c66"
                }
            }
        ]
    }, 
    "implicitRules": "Property. Model:'https://raw.githubusercontent.com/agaldemas/incubated/master/SMARTHEALTH/HL7/FHIR-R4/FHIR-R4/uri' String of characters used to identify a name or a resource", 
    "_implicitRules": {
        "id": "8127d148-7a83-4b83-abb5-0981d42c25f7", 
        "extension": [
            "urn:ngsi-ld:Extension:001"
        ]
    }, 
    "language": "Property. Model:'https://raw.githubusercontent.com/agaldemas/incubated/master/SMARTHEALTH/HL7/FHIR-R4/FHIR-R4/code' A string which has at least one character and no leading or trailing whitespace and where there is no whitespace other than single spaces in the contents", 
    "_language": {
        "id": "12391168-9ae0-4216-b0b5-2902d567f1d3", 
        "extension": [
            "urn:ngsi-ld:Extension:001"
        ]
    }, 
    "text": {
        "status": "generated", 
        "div": "<div xmlns=\"http://www.w3.org/1999/xhtml\">\n      <pre>\n            Comorbidity? YES\n              Cardial Comorbidity? YES\n                Angina? YES\n                MI? NO\n              Vascular Comorbidity?\n                (no answers)\n              ...\n            Histopathology\n              Abdominal\n                pT category: 1a\n              ...\n          </pre>\n    </div>"
    }, 
    "contained": [
        {
            "resourceType": "Patient", 
            "id": "patsub", 
            "identifier": [
                {
                    "system": "http://cancer.questionnaire.org/systems/id/patientnr", 
                    "value": "A34442332"
                }, 
                {
                    "type": {
                        "text": "Dutch BSN"
                    }, 
                    "system": "urn:oid:2.16.840.1.113883.2.4.6.3", 
                    "value": "188912345"
                }
            ], 
            "gender": "male", 
            "birthDate": "1972-11-30"
        }, 
        {
            "resourceType": "ServiceRequest", 
            "id": "order", 
            "status": "unknown", 
            "intent": "order", 
            "subject": {
                "reference": "#patsub"
            }, 
            "requester": {
                "reference": "Practitioner/example"
            }
        }, 
        {
            "resourceType": "Practitioner", 
            "id": "questauth", 
            "identifier": [
                {
                    "type": {
                        "text": "AUMC, Den Helder"
                    }, 
                    "system": "http://cancer.questionnaire.org/systems/id/org", 
                    "value": "AUMC"
                }
            ]
        }
    ], 
    "extension": [
        "urn:ngsi-ld:Extension:001"
    ], 
    "modifierExtension": [
        "urn:ngsi-ld:Extension:modifier001"
    ], 
    "identifier": {
        "system": "http://example.org/fhir/NamingSystem/questionnaire-ids", 
        "value": "Q12349876"
    }, 
    "basedOn": [
        {
            "reference": "#order"
        }
    ], 
    "partOf": [
        {
            "reference": "Procedure/f201"
        }
    ], 
    "questionnaire": "Property. Model:'https://raw.githubusercontent.com/agaldemas/incubated/master/SMARTHEALTH/HL7/FHIR-R4/FHIR-R4/canonical' A URI that is a reference to a canonical URL on a FHIR resource", 
    "status": "completed", 
    "_status": {
        "id": "1b7e4464-4e39-423b-a188-8be557aa2cdd", 
        "extension": [
            "urn:ngsi-ld:Extension:001"
        ]
    }, 
    "subject": {
        "reference": "#patsub"
    }, 
    "encounter": {
        "reference": "Encounter/example"
    }, 
    "authored": "2013-02-19T14:15:00-05:00", 
    "_authored": {
        "id": "31b18b31-99d9-4992-8986-c183dfd039fb", 
        "extension": [
            "urn:ngsi-ld:Extension:001"
        ]
    }, 
    "author": {
        "reference": "#questauth"
    }, 
    "source": {
        "id": "5ebdacce-7016-4ac9-b80c-885fbd5e749f", 
        "extension": [
            "urn:ngsi-ld:Extension:001"
        ], 
        "reference": "A reference to a location at which the other resource is found. The reference may be a relative reference, in which case it is relative to the service base URL, or an absolute URL that resolves to the location where the resource is found. The reference may be version specific or not. If the reference is not to a FHIR RESTful server, then it should be assumed to be version specific. Internal fragment references (start with '#') refer to contained resources.", 
        "_reference": {
            "id": "fa0fe9f2-5095-4574-95b1-ff8b41c410e2"
        }, 
        "type": "The expected type of the target of the reference. If both Reference.type and Reference.reference are populated and Reference.reference is a FHIR URL, both SHALL be consistent.\n\nThe type is the Canonical URL of Resource Definition that is the type this reference refers to. References are URLs that are relative to http://hl7.org/fhir/StructureDefinition/ e.g. \"Patient\" is a reference to http://hl7.org/fhir/StructureDefinition/Patient. Absolute URLs are only allowed for logical models (and can only be used in references in logical models, not resources).", 
        "_type": {
            "id": "9b2e046a-5bc0-4bbc-b0e9-bee732813dcc"
        }, 
        "identifier": {
            "id": "1e2e885a-6f57-4aeb-a6cc-c4f1c4fdc5a1", 
            "_use": {
                "id": "1e0d05c2-e66e-4cc2-9b28-bad8117e064c"
            }, 
            "type": {
                "id": "17523ac3-6956-4dae-bdcb-7c2400f563e7", 
                "text": "A human language representation of the concept as seen/selected/uttered by the user who entered the data and/or which represents the intended meaning of the user."
            }, 
            "system": "Establishes the namespace for the value - that is, a URL that describes a set values that are unique.", 
            "_system": {
                "id": "aefcbe98-fdc5-41ba-9e73-58b0ce5aa1b9"
            }, 
            "value": "The portion of the identifier typically relevant to the user and which is unique within the context of the system.", 
            "_value": {
                "id": "acdd02cb-9a62-488f-8b3f-f1a46d500995"
            }, 
            "period": {
                "id": "4a0c7ed3-4944-4f22-b6ec-c91f45510df6", 
                "start": "The start of the period. The boundary is inclusive.", 
                "end": "The end of the period. If the end of the period is missing, it means no end was known or planned at the time the instance was created. The start may be in the past, and the end date in the future, which means that period is expected/planned to end at that time."
            }, 
            "assigner": {
                "id": "820a2009-e98a-494a-b68b-bbbcca19ceb8", 
                "reference": "A reference to a location at which the other resource is found. The reference may be a relative reference, in which case it is relative to the service base URL, or an absolute URL that resolves to the location where the resource is found. The reference may be version specific or not. If the reference is not to a FHIR RESTful server, then it should be assumed to be version specific. Internal fragment references (start with '#') refer to contained resources.", 
                "type": "The expected type of the target of the reference. If both Reference.type and Reference.reference are populated and Reference.reference is a FHIR URL, both SHALL be consistent.\n\nThe type is the Canonical URL of Resource Definition that is the type this reference refers to. References are URLs that are relative to http://hl7.org/fhir/StructureDefinition/ e.g. \"Patient\" is a reference to http://hl7.org/fhir/StructureDefinition/Patient. Absolute URLs are only allowed for logical models (and can only be used in references in logical models, not resources).", 
                "display": "Plain text narrative that identifies the resource in addition to the resource reference."
            }
        }, 
        "display": "Plain text narrative that identifies the resource in addition to the resource reference.", 
        "_display": {
            "id": "bb39f6fc-efc2-415e-948a-5613758e1c3a"
        }
    }, 
    "item": [
        {
            "linkId": "1", 
            "item": [
                {
                    "linkId": "1.1", 
                    "answer": [
                        {
                            "valueCoding": {
                                "system": "http://cancer.questionnaire.org/system/code/yesno", 
                                "code": "1", 
                                "display": "Yes"
                            }, 
                            "item": [
                                {
                                    "linkId": "1.1.1", 
                                    "item": [
                                        {
                                            "linkId": "1.1.1.1", 
                                            "answer": [
                                                {
                                                    "valueCoding": {
                                                        "system": "http://cancer.questionnaire.org/system/code/yesno", 
                                                        "code": "1"
                                                    }
                                                }
                                            ]
                                        }, 
                                        {
                                            "linkId": "1.1.1.2", 
                                            "answer": [
                                                {
                                                    "valueCoding": {
                                                        "system": "http://cancer.questionnaire.org/system/code/yesno", 
                                                        "code": "1"
                                                    }
                                                }
                                            ]
                                        }, 
                                        {
                                            "linkId": "1.1.1.3", 
                                            "answer": [
                                                {
                                                    "valueCoding": {
                                                        "system": "http://cancer.questionnaire.org/system/code/yesno", 
                                                        "code": "0"
                                                    }
                                                }
                                            ]
                                        }
                                    ]
                                }
                            ]
                        }
                    ]
                }
            ]
        }
    ], 
    "id": "urn:ngsi-ld:QuestionnaireResponse:001", 
    "description": "an instance of QuestionnaireResponse"
}