{
    "resourceType": "QuestionnaireResponse", 
    "type": "QuestionnaireResponse", 
    "meta": {
        "id": "id as Text", 
        "extension": [
            "urn:ngsi-ld:Extension:001"
        ], 
        "versionId": "versionId as Text", 
        "_versionId": {
            "id": "id as Text", 
            "extension": [
                "urn:ngsi-ld:Extension:001"
            ]
        }, 
        "lastUpdated": "15/11/2024", 
        "_lastUpdated": {
            "id": "id as Text", 
            "extension": [
                "urn:ngsi-ld:Extension:001"
            ]
        }, 
        "source": "source as Text", 
        "_source": {
            "id": "id as Text", 
            "extension": [
                "urn:ngsi-ld:Extension:001"
            ]
        }, 
        "profile": "profile as Text", 
        "security": {
            "id": "id as Text", 
            "extension": [
                "urn:ngsi-ld:Extension:001"
            ], 
            "system": "system as Text", 
            "_system": {
                "extension": [
                    "urn:ngsi-ld:Extension:001"
                ]
            }, 
            "version": "version as Text", 
            "_version": {
                "extension": [
                    "urn:ngsi-ld:Extension:001"
                ]
            }, 
            "code": "code as Text", 
            "_code": {
                "extension": [
                    "urn:ngsi-ld:Extension:001"
                ]
            }, 
            "display": "display as Text", 
            "_display": {
                "extension": [
                    "urn:ngsi-ld:Extension:001"
                ]
            }, 
            "userSelected": false, 
            "_userSelected": {
                "extension": [
                    "urn:ngsi-ld:Extension:001"
                ]
            }
        }, 
        "tag": {
            "id": "id as Text", 
            "extension": [
                "urn:ngsi-ld:Extension:001"
            ], 
            "system": "system as Text", 
            "_system": {
                "extension": [
                    "urn:ngsi-ld:Extension:001"
                ]
            }, 
            "version": "version as Text", 
            "_version": {
                "extension": [
                    "urn:ngsi-ld:Extension:001"
                ]
            }, 
            "code": "code as Text", 
            "_code": {
                "extension": [
                    "urn:ngsi-ld:Extension:001"
                ]
            }, 
            "display": "display as Text", 
            "_display": {
                "extension": [
                    "urn:ngsi-ld:Extension:001"
                ]
            }, 
            "userSelected": false, 
            "_userSelected": {
                "extension": [
                    "urn:ngsi-ld:Extension:001"
                ]
            }
        }
    }, 
    "implicitRules": "implicitRules as text", 
    "_implicitRules": {
        "id": "id as Text", 
        "extension": [
            "urn:ngsi-ld:Extension:001"
        ]
    }, 
    "language": "language as text", 
    "_language": {
        "id": "id as Text", 
        "extension": [
            "urn:ngsi-ld:Extension:001"
        ]
    }, 
    "text": {
        "status": "generated", 
        "div": "<div xmlns=\"http://www.w3.org/1999/xhtml\">\n      <pre>\n            Comorbidity? YES\n              Cardial Comorbidity? YES\n                Angina? YES\n                MI? NO\n              Vascular Comorbidity?\n                (no answers)\n              ...\n            Histopathology\n              Abdominal\n                pT category: 1a\n              ...\n          </pre>\n    </div>"
    }, 
    "contained": [
        {
            "resourceType": "Patient", 
            "id": "patsub", 
            "identifier": [
                {
                    "system": "http://cancer.questionnaire.org/systems/id/patientnr", 
                    "value": "A34442332"
                }, 
                {
                    "type": {
                        "text": "Dutch BSN"
                    }, 
                    "system": "urn:oid:2.16.840.1.113883.2.4.6.3", 
                    "value": "188912345"
                }
            ], 
            "gender": "male", 
            "birthDate": "1972-11-30"
        }, 
        {
            "resourceType": "ServiceRequest", 
            "id": "order", 
            "status": "unknown", 
            "intent": "order", 
            "subject": {
                "reference": "#patsub"
            }, 
            "requester": {
                "reference": "Practitioner/example"
            }
        }, 
        {
            "resourceType": "Practitioner", 
            "id": "questauth", 
            "identifier": [
                {
                    "type": {
                        "text": "AUMC, Den Helder"
                    }, 
                    "system": "http://cancer.questionnaire.org/systems/id/org", 
                    "value": "AUMC"
                }
            ]
        }
    ], 
    "extension": [
        "urn:ngsi-ld:Extension:001"
    ], 
    "modifierExtension": [
        "urn:ngsi-ld:Extension:modifier001"
    ], 
    "identifier": {
        "system": "http://example.org/fhir/NamingSystem/questionnaire-ids", 
        "value": "Q12349876"
    }, 
    "basedOn": [
        {
            "reference": "#order"
        }
    ], 
    "partOf": [
        {
            "reference": "Procedure/f201"
        }
    ], 
    "questionnaire": "questionnaire as text", 
    "status": "completed", 
    "_status": {
        "id": "id as Text", 
        "extension": [
            "urn:ngsi-ld:Extension:001"
        ]
    }, 
    "subject": {
        "reference": "#patsub"
    }, 
    "encounter": {
        "reference": "Encounter/example"
    }, 
    "authored": "2013-02-19T14:15:00-05:00", 
    "_authored": {
        "id": "id as Text", 
        "extension": [
            "urn:ngsi-ld:Extension:001"
        ]
    }, 
    "author": {
        "reference": "#questauth"
    }, 
    "source": {
        "id": "id as Text", 
        "extension": [
            "urn:ngsi-ld:Extension:001"
        ], 
        "reference": "reference as Text", 
        "_reference": {
            "id": "id as Text", 
            "extension": [
                "urn:ngsi-ld:Extension:001"
            ]
        }, 
        "type": "type as Text", 
        "_type": {
            "id": "id as Text", 
            "extension": [
                "urn:ngsi-ld:Extension:001"
            ]
        }, 
        "identifier": {
            "id": "id as Text", 
            "extension": [
                "urn:ngsi-ld:Extension:001"
            ], 
            "_use": {
                "extension": [
                    "urn:ngsi-ld:Extension:001"
                ]
            }, 
            "type": {
                "extension": [
                    "urn:ngsi-ld:Extension:001"
                ]
            }, 
            "system": "system as Text", 
            "_system": {
                "extension": [
                    "urn:ngsi-ld:Extension:001"
                ]
            }, 
            "value": "value as Text", 
            "_value": {
                "extension": [
                    "urn:ngsi-ld:Extension:001"
                ]
            }, 
            "period": {
                "extension": [
                    "urn:ngsi-ld:Extension:001"
                ]
            }, 
            "assigner": {
                "extension": [
                    "urn:ngsi-ld:Extension:001"
                ]
            }
        }, 
        "display": "display as Text", 
        "_display": {
            "id": "id as Text", 
            "extension": [
                "urn:ngsi-ld:Extension:001"
            ]
        }
    }, 
    "item": [
        {
            "linkId": "1", 
            "item": [
                {
                    "linkId": "1.1", 
                    "answer": [
                        {
                            "valueCoding": {
                                "system": "http://cancer.questionnaire.org/system/code/yesno", 
                                "code": "1", 
                                "display": "Yes"
                            }, 
                            "item": [
                                {
                                    "linkId": "1.1.1", 
                                    "item": [
                                        {
                                            "linkId": "1.1.1.1", 
                                            "answer": [
                                                {
                                                    "valueCoding": {
                                                        "system": "http://cancer.questionnaire.org/system/code/yesno", 
                                                        "code": "1"
                                                    }
                                                }
                                            ]
                                        }, 
                                        {
                                            "linkId": "1.1.1.2", 
                                            "answer": [
                                                {
                                                    "valueCoding": {
                                                        "system": "http://cancer.questionnaire.org/system/code/yesno", 
                                                        "code": "1"
                                                    }
                                                }
                                            ]
                                        }, 
                                        {
                                            "linkId": "1.1.1.3", 
                                            "answer": [
                                                {
                                                    "valueCoding": {
                                                        "system": "http://cancer.questionnaire.org/system/code/yesno", 
                                                        "code": "0"
                                                    }
                                                }
                                            ]
                                        }
                                    ]
                                }
                            ]
                        }
                    ]
                }
            ]
        }
    ], 
    "id": "urn:ngsi-ld:QuestionnaireResponse:001", 
    "description": "an instance of QuestionnaireResponse"
}